Folder: Chemistry/nickel_exp_data

File: 0.00249M.csv
"Wavelength nm.","Abs."
500.00,0.033
502.50,0.032
505.00,0.032
507.50,0.032
510.00,0.033
512.50,0.034
515.00,0.036
517.50,0.038
520.00,0.040
522.50,0.043
525.00,0.047
527.50,0.050
530.00,0.054
532.50,0.057
535.00,0.061
537.50,0.065
540.00,0.070
542.50,0.074
545.00,0.079
547.50,0.083
550.00,0.089
552.50,0.094
555.00,0.099
557.50,0.104
560.00,0.110
562.50,0.116
565.00,0.123
567.50,0.130
570.00,0.137
572.50,0.145
575.00,0.153
577.50,0.162
580.00,0.171
582.50,0.180
585.00,0.189
587.50,0.199
590.00,0.209
592.50,0.218
595.00,0.227
597.50,0.235
600.00,0.242
602.50,0.248
605.00,0.253
607.50,0.258
610.00,0.263
612.50,0.267
615.00,0.271
617.50,0.275
620.00,0.277
622.50,0.280
625.00,0.282
627.50,0.284
630.00,0.285
632.50,0.286
635.00,0.286
637.50,0.285
640.00,0.284
642.50,0.282
645.00,0.280
647.50,0.278
650.00,0.275
652.50,0.273
655.00,0.271
657.50,0.269
660.00,0.267
662.50,0.265
665.00,0.264
667.50,0.262
670.00,0.261
672.50,0.260
675.00,0.258
677.50,0.256
680.00,0.253
682.50,0.250
685.00,0.246
687.50,0.241
690.00,0.235
692.50,0.228
695.00,0.220
697.50,0.211
700.00,0.203
702.50,0.193
705.00,0.184
707.50,0.174
710.00,0.164
712.50,0.154
715.00,0.144
717.50,0.135
720.00,0.126
722.50,0.117
725.00,0.109
727.50,0.102
730.00,0.095
732.50,0.088
735.00,0.082
737.50,0.076
740.00,0.070
742.50,0.065
745.00,0.061
747.50,0.057
750.00,0.053
752.50,0.050
755.00,0.047
757.50,0.044
760.00,0.042
762.50,0.039
765.00,0.037
767.50,0.035
770.00,0.034
772.50,0.033
775.00,0.032
777.50,0.031
780.00,0.030
782.50,0.030
785.00,0.029
787.50,0.029
790.00,0.029
792.50,0.030
795.00,0.030
797.50,0.031
800.00,0.031
802.50,0.032
805.00,0.033
807.50,0.034
810.00,0.035
812.50,0.037
815.00,0.038
817.50,0.040
820.00,0.041
822.50,0.043
825.00,0.045
827.50,0.047
830.00,0.049
832.50,0.051
835.00,0.054
837.50,0.056
840.00,0.058
842.50,0.061
845.00,0.063
847.50,0.066
850.00,0.069
852.50,0.071
855.00,0.074
857.50,0.077
860.00,0.080
862.50,0.083
865.00,0.086
867.50,0.089
870.00,0.092
872.50,0.095
875.00,0.098
877.50,0.100
880.00,0.103
882.50,0.106
885.00,0.108
887.50,0.111
890.00,0.113
892.50,0.116
895.00,0.119
897.50,0.121
900.00,0.123
902.50,0.125
905.00,0.127
907.50,0.129
910.00,0.131
912.50,0.132
915.00,0.134
917.50,0.135
920.00,0.136
922.50,0.137
925.00,0.138
927.50,0.139
930.00,0.139
932.50,0.140
935.00,0.141
937.50,0.141
940.00,0.141
942.50,0.141
945.00,0.141
947.50,0.141
950.00,0.141
952.50,0.141
955.00,0.141
957.50,0.140
960.00,0.140
962.50,0.140
965.00,0.139
967.50,0.139
970.00,0.138
972.50,0.138
975.00,0.137
977.50,0.137
980.00,0.137
982.50,0.137
985.00,0.136
987.50,0.136
990.00,0.136
992.50,0.136
995.00,0.136
997.50,0.136
1000.00,0.137
1002.50,0.138
1005.00,0.139
1007.50,0.140
1010.00,0.141
1012.50,0.143
1015.00,0.144
1017.50,0.145
1020.00,0.145
1022.50,0.146
1025.00,0.146
1027.50,0.146
1030.00,0.145
1032.50,0.144
1035.00,0.143
1037.50,0.141
1040.00,0.139
1042.50,0.137
1045.00,0.134
1047.50,0.131
1050.00,0.129
1052.50,0.126
1055.00,0.124
1057.50,0.122
1060.00,0.120
1062.50,0.118
1065.00,0.116
1067.50,0.114
1070.00,0.113
1072.50,0.112
1075.00,0.111
1077.50,0.110
1080.00,0.109
1082.50,0.108
1085.00,-0.004
1087.50,-0.024
1090.00,-0.024
1092.50,-0.029
1095.00,-0.030
1097.50,-0.032
1100.00,-0.033

File: 0.00499M.csv
"Wavelength nm.","Abs."
500.00,0.064
502.50,0.062
505.00,0.063
507.50,0.064
510.00,0.067
512.50,0.071
515.00,0.076
517.50,0.083
520.00,0.091
522.50,0.100
525.00,0.110
527.50,0.121
530.00,0.133
532.50,0.145
535.00,0.157
537.50,0.171
540.00,0.184
542.50,0.199
545.00,0.213
547.50,0.229
550.00,0.244
552.50,0.260
555.00,0.275
557.50,0.291
560.00,0.306
562.50,0.322
565.00,0.338
567.50,0.355
570.00,0.371
572.50,0.388
575.00,0.405
577.50,0.422
580.00,0.439
582.50,0.455
585.00,0.471
587.50,0.487
590.00,0.502
592.50,0.516
595.00,0.530
597.50,0.541
600.00,0.550
602.50,0.558
605.00,0.565
607.50,0.570
610.00,0.576
612.50,0.580
615.00,0.584
617.50,0.586
620.00,0.588
622.50,0.589
625.00,0.590
627.50,0.590
630.00,0.589
632.50,0.587
635.00,0.585
637.50,0.581
640.00,0.576
642.50,0.570
645.00,0.563
647.50,0.556
650.00,0.549
652.50,0.542
655.00,0.535
657.50,0.529
660.00,0.523
662.50,0.518
665.00,0.512
667.50,0.507
670.00,0.502
672.50,0.497
675.00,0.491
677.50,0.485
680.00,0.478
682.50,0.469
685.00,0.460
687.50,0.449
690.00,0.436
692.50,0.421
695.00,0.406
697.50,0.389
700.00,0.372
702.50,0.354
705.00,0.336
707.50,0.318
710.00,0.299
712.50,0.280
715.00,0.261
717.50,0.243
720.00,0.226
722.50,0.210
725.00,0.195
727.50,0.181
730.00,0.168
732.50,0.156
735.00,0.144
737.50,0.133
740.00,0.123
742.50,0.114
745.00,0.106
747.50,0.099
750.00,0.092
752.50,0.087
755.00,0.081
757.50,0.076
760.00,0.072
762.50,0.068
765.00,0.065
767.50,0.063
770.00,0.061
772.50,0.060
775.00,0.059
777.50,0.058
780.00,0.058
782.50,0.059
785.00,0.060
787.50,0.062
790.00,0.063
792.50,0.066
795.00,0.068
797.50,0.072
800.00,0.075
802.50,0.079
805.00,0.084
807.50,0.089
810.00,0.094
812.50,0.100
815.00,0.105
817.50,0.112
820.00,0.118
822.50,0.125
825.00,0.132
827.50,0.140
830.00,0.148
832.50,0.157
835.00,0.165
837.50,0.174
840.00,0.182
842.50,0.191
845.00,0.201
847.50,0.210
850.00,0.220
852.50,0.231
855.00,0.241
857.50,0.251
860.00,0.261
862.50,0.271
865.00,0.281
867.50,0.291
870.00,0.301
872.50,0.312
875.00,0.322
877.50,0.331
880.00,0.341
882.50,0.349
885.00,0.358
887.50,0.366
890.00,0.374
892.50,0.382
895.00,0.389
897.50,0.396
900.00,0.402
902.50,0.408
905.00,0.412
907.50,0.417
910.00,0.421
912.50,0.424
915.00,0.427
917.50,0.429
920.00,0.431
922.50,0.432
925.00,0.432
927.50,0.432
930.00,0.432
932.50,0.431
935.00,0.429
937.50,0.427
940.00,0.425
942.50,0.422
945.00,0.419
947.50,0.415
950.00,0.411
952.50,0.407
955.00,0.403
957.50,0.398
960.00,0.393
962.50,0.388
965.00,0.383
967.50,0.378
970.00,0.373
972.50,0.368
975.00,0.363
977.50,0.358
980.00,0.354
982.50,0.349
985.00,0.344
987.50,0.340
990.00,0.336
992.50,0.332
995.00,0.329
997.50,0.326
1000.00,0.323
1002.50,0.321
1005.00,0.320
1007.50,0.319
1010.00,0.319
1012.50,0.318
1015.00,0.317
1017.50,0.316
1020.00,0.315
1022.50,0.314
1025.00,0.312
1027.50,0.309
1030.00,0.307
1032.50,0.303
1035.00,0.299
1037.50,0.295
1040.00,0.290
1042.50,0.284
1045.00,0.278
1047.50,0.272
1050.00,0.266
1052.50,0.261
1055.00,0.256
1057.50,0.251
1060.00,0.246
1062.50,0.242
1065.00,0.238
1067.50,0.235
1070.00,0.232
1072.50,0.229
1075.00,0.226
1077.50,0.224
1080.00,0.222
1082.50,0.221
1085.00,0.219
1087.50,0.219
1090.00,0.218
1092.50,0.218
1095.00,0.219
1097.50,0.220
1100.00,0.221

File: 0.00997M.csv
"Wavelength nm.","Abs."
500.00,0.165
502.50,0.160
505.00,0.160
507.50,0.163
510.00,0.171
512.50,0.182
515.00,0.196
517.50,0.213
520.00,0.234
522.50,0.258
525.00,0.284
527.50,0.313
530.00,0.344
532.50,0.376
535.00,0.410
537.50,0.445
540.00,0.481
542.50,0.519
545.00,0.558
547.50,0.599
550.00,0.639
552.50,0.680
555.00,0.720
557.50,0.759
560.00,0.798
562.50,0.835
565.00,0.873
567.50,0.911
570.00,0.948
572.50,0.984
575.00,1.019
577.50,1.050
580.00,1.081
582.50,1.110
585.00,1.137
587.50,1.163
590.00,1.186
592.50,1.206
595.00,1.223
597.50,1.237
600.00,1.246
602.50,1.253
605.00,1.258
607.50,1.261
610.00,1.263
612.50,1.264
615.00,1.263
617.50,1.261
620.00,1.257
622.50,1.251
625.00,1.245
627.50,1.238
630.00,1.230
632.50,1.221
635.00,1.210
637.50,1.197
640.00,1.182
642.50,1.165
645.00,1.147
647.50,1.129
650.00,1.111
652.50,1.093
655.00,1.076
657.50,1.060
660.00,1.044
662.50,1.028
665.00,1.013
667.50,0.998
670.00,0.983
672.50,0.968
675.00,0.953
677.50,0.937
680.00,0.919
682.50,0.900
685.00,0.879
687.50,0.855
690.00,0.828
692.50,0.798
695.00,0.767
697.50,0.734
700.00,0.701
702.50,0.667
705.00,0.634
707.50,0.598
710.00,0.563
712.50,0.527
715.00,0.492
717.50,0.458
720.00,0.427
722.50,0.397
725.00,0.370
727.50,0.344
730.00,0.320
732.50,0.297
735.00,0.276
737.50,0.256
740.00,0.238
742.50,0.221
745.00,0.207
747.50,0.194
750.00,0.183
752.50,0.172
755.00,0.163
757.50,0.155
760.00,0.148
762.50,0.143
765.00,0.139
767.50,0.136
770.00,0.134
772.50,0.133
775.00,0.134
777.50,0.135
780.00,0.138
782.50,0.142
785.00,0.147
787.50,0.153
790.00,0.160
792.50,0.168
795.00,0.177
797.50,0.187
800.00,0.198
802.50,0.211
805.00,0.225
807.50,0.240
810.00,0.256
812.50,0.272
815.00,0.289
817.50,0.308
820.00,0.327
822.50,0.347
825.00,0.368
827.50,0.390
830.00,0.413
832.50,0.438
835.00,0.462
837.50,0.486
840.00,0.510
842.50,0.536
845.00,0.562
847.50,0.590
850.00,0.618
852.50,0.647
855.00,0.675
857.50,0.704
860.00,0.732
862.50,0.760
865.00,0.788
867.50,0.816
870.00,0.844
872.50,0.872
875.00,0.899
877.50,0.926
880.00,0.951
882.50,0.974
885.00,0.997
887.50,1.019
890.00,1.039
892.50,1.060
895.00,1.079
897.50,1.097
900.00,1.112
902.50,1.125
905.00,1.137
907.50,1.148
910.00,1.156
912.50,1.163
915.00,1.169
917.50,1.172
920.00,1.174
922.50,1.174
925.00,1.172
927.50,1.169
930.00,1.164
932.50,1.158
935.00,1.150
937.50,1.141
940.00,1.130
942.50,1.118
945.00,1.106
947.50,1.092
950.00,1.078
952.50,1.063
955.00,1.047
957.50,1.030
960.00,1.012
962.50,0.994
965.00,0.976
967.50,0.958
970.00,0.941
972.50,0.923
975.00,0.905
977.50,0.887
980.00,0.870
982.50,0.853
985.00,0.836
987.50,0.820
990.00,0.805
992.50,0.790
995.00,0.776
997.50,0.764
1000.00,0.752
1002.50,0.741
1005.00,0.732
1007.50,0.724
1010.00,0.717
1012.50,0.710
1015.00,0.704
1017.50,0.696
1020.00,0.689
1022.50,0.681
1025.00,0.672
1027.50,0.664
1030.00,0.655
1032.50,0.646
1035.00,0.635
1037.50,0.624
1040.00,0.612
1042.50,0.598
1045.00,0.585
1047.50,0.573
1050.00,0.561
1052.50,0.550
1055.00,0.539
1057.50,0.529
1060.00,0.519
1062.50,0.510
1065.00,0.502
1067.50,0.494
1070.00,0.487
1072.50,0.481
1075.00,0.476
1077.50,0.471
1080.00,0.466
1082.50,0.462
1085.00,0.459
1087.50,0.457
1090.00,0.456
1092.50,0.455
1095.00,0.455
1097.50,0.456
1100.00,0.458